{
  "resourceType": "Bundle",
  "id": "bundle-synthetic-patients",
  "type": "collection",
  "entry": [
    {
      "fullUrl": "urn:uuid:patient-001",
      "resource": {
        "resourceType": "Patient",
        "id": "patient-001",
        "name": [{ "use": "official", "family": "Smith", "given": ["John"] }],
        "gender": "male",
        "birthDate": "1975-05-20"
      }
    },
    {
      "fullUrl": "urn:uuid:condition-001",
      "resource": {
        "resourceType": "Condition",
        "id": "condition-001",
        "clinicalStatus": {
          "coding": [{
            "system": "http://terminology.hl7.org/CodeSystem/condition-clinical",
            "code": "active"
          }]
        },
        "code": {
          "coding": [{
            "system": "http://snomed.info/sct",
            "code": "38341003",
            "display": "Hypertension"
          }]
        },
        "subject": { "reference": "urn:uuid:patient-001" }
      }
    },
    {
      "fullUrl": "urn:uuid:familymemberhistory-001",
      "resource": {
          "resourceType": "FamilyMemberHistory",
          "id": "familymemberhistory-001",
          "status": "completed",
          "patient": { "reference": "urn:uuid:patient-001" },
          "relationship": { "coding": [{ "system": "http://terminology.hl7.org/CodeSystem/v3-RoleCode", "code": "FTH" }] },
          "condition": [{ "code": { "coding": [{ "system": "http://snomed.info/sct", "code": "56265001", "display": "Heart disease" }] } }]
      }
    },
    {
      "fullUrl": "urn:uuid:patient-002",
      "resource": {
        "resourceType": "Patient",
        "id": "patient-002",
        "name": [{ "use": "official", "family": "Doe", "given": ["Jane"] }],
        "gender": "female",
        "birthDate": "1992-11-10"
      }
    },
    {
      "fullUrl": "urn:uuid:condition-002",
      "resource": {
        "resourceType": "Condition",
        "id": "condition-002",
        "clinicalStatus": { "coding": [{ "system": "http://terminology.hl7.org/CodeSystem/condition-clinical", "code": "active" }] },
        "code": { "coding": [{ "system": "http://snomed.info/sct", "code": "195967001", "display": "Asthma" }] },
        "subject": { "reference": "urn:uuid:patient-002" }
      }
    },
    {
      "fullUrl": "urn:uuid:familymemberhistory-002",
      "resource": {
          "resourceType": "FamilyMemberHistory",
          "id": "familymemberhistory-002",
          "status": "completed",
          "patient": { "reference": "urn:uuid:patient-002" },
          "relationship": { "coding": [{ "system": "http://terminology.hl7.org/CodeSystem/v3-RoleCode", "code": "MTH" }] },
          "condition": [{ "code": { "coding": [{ "system": "http://snomed.info/sct", "code": "44054006", "display": "Diabetes mellitus type 2" }] } }]
      }
    },
    {
      "fullUrl": "urn:uuid:patient-003",
      "resource": {
        "resourceType": "Patient",
        "id": "patient-003",
        "name": [{ "use": "official", "family": "Johnson", "given": ["Robert"] }],
        "gender": "male",
        "birthDate": "1960-01-30"
      }
    },
    {
      "fullUrl": "urn:uuid:condition-003",
      "resource": {
        "resourceType": "Condition",
        "id": "condition-003",
        "clinicalStatus": { "coding": [{ "system": "http://terminology.hl7.org/CodeSystem/condition-clinical", "code": "active" }] },
        "code": { "coding": [{ "system": "http://snomed.info/sct", "code": "44054006", "display": "Diabetes mellitus type 2" }] },
        "subject": { "reference": "urn:uuid:patient-003" }
      }
    },
    {
      "fullUrl": "urn:uuid:familymemberhistory-003",
      "resource": {
          "resourceType": "FamilyMemberHistory",
          "id": "familymemberhistory-003",
          "status": "completed",
          "patient": { "reference": "urn:uuid:patient-003" },
          "relationship": { "coding": [{ "system": "http://terminology.hl7.org/CodeSystem/v3-RoleCode", "code": "FTH" }] },
          "condition": [{ "code": { "coding": [{ "system": "http://snomed.info/sct", "code": "363358000", "display": "Malignant tumor of lung" }] } }]
      }
    },
    {
      "fullUrl": "urn:uuid:patient-004",
      "resource": {
        "resourceType": "Patient",
        "id": "patient-004",
        "name": [{ "use": "official", "family": "White", "given": ["Emily"] }],
        "gender": "female",
        "birthDate": "1980-08-12"
      }
    },
    {
      "fullUrl": "urn:uuid:condition-004",
      "resource": {
        "resourceType": "Condition",
        "id": "condition-004",
        "clinicalStatus": { "coding": [{ "system": "http://terminology.hl7.org/CodeSystem/condition-clinical", "code": "remission" }] },
        "code": { "coding": [{ "system": "http://snomed.info/sct", "code": "254837009", "display": "Malignant neoplasm of breast" }] },
        "subject": { "reference": "urn:uuid:patient-004" }
      }
    },
    {
      "fullUrl": "urn:uuid:familymemberhistory-004",
      "resource": {
          "resourceType": "FamilyMemberHistory",
          "id": "familymemberhistory-004",
          "status": "completed",
          "patient": { "reference": "urn:uuid:patient-004" },
          "relationship": { "coding": [{ "system": "http://terminology.hl7.org/CodeSystem/v3-RoleCode", "code": "MTH" }] },
          "condition": [{ "code": { "coding": [{ "system": "http://snomed.info/sct", "code": "363443007", "display": "Malignant neoplasm of ovary" }] } }]
      }
    },
    {
      "fullUrl": "urn:uuid:patient-005",
      "resource": {
        "resourceType": "Patient",
        "id": "patient-005",
        "name": [{ "use": "official", "family": "Brown", "given": ["Michael"] }],
        "gender": "male",
        "birthDate": "1998-02-25"
      }
    }
  ]
}